"rt","stimulus","key_press","test_part","expected_response","v_cond","v_wordNum","v_colNum","v_correct","trial_type","trial_index","time_elapsed","internal_node_id","id","date","time"
"1159","<span style=""color:purple"">Verspätung</span>","68","test","d","1","2","2","1","html-keyboard-response","7","430336","0.0-4.0-1.0","305","7.1.2020","19:09:02"
"561","<span style=""color:blue"">Unglück</span>","65","test","a","1","3","0","1","html-keyboard-response","9","432616","0.0-4.0-1.1","305","7.1.2020","19:09:02"
"669","<span style=""color:blue"">Stift</span>","65","test","a","2","3","0","1","html-keyboard-response","11","434897","0.0-4.0-1.2","305","7.1.2020","19:09:02"
"1757","<span style=""color:purple"">Glas</span>","68","test","d","2","2","2","1","html-keyboard-response","13","437176","0.0-4.0-1.3","305","7.1.2020","19:09:02"
"1094","<span style=""color:blue"">Tuch</span>","65","test","a","2","0","0","1","html-keyboard-response","15","439440","0.0-4.0-1.4","305","7.1.2020","19:09:02"
"739","<span style=""color:green"">Trauer</span>","87","test","w","1","1","1","1","html-keyboard-response","17","441717","0.0-4.0-1.5","305","7.1.2020","19:09:02"
"635","<span style=""color:blue"">Unfall</span>","65","test","a","1","0","0","1","html-keyboard-response","19","443997","0.0-4.0-1.6","305","7.1.2020","19:09:02"
"535","<span style=""color:green"">Würfel</span>","87","test","w","2","1","1","1","html-keyboard-response","21","446266","0.0-4.0-1.7","305","7.1.2020","19:09:02"
"582","<span style=""color:blue"">Zerstörung</span>","65","main","a","1","8","0","1","html-keyboard-response","24","465167","0.0-6.0-1.0","305","7.1.2020","19:09:02"
"634","<span style=""color:green"">Fahrzeug</span>","87","main","w","2","4","1","1","html-keyboard-response","26","467446","0.0-6.0-1.1","305","7.1.2020","19:09:02"
"842","<span style=""color:blue"">Anker</span>","65","main","a","2","0","0","1","html-keyboard-response","28","469726","0.0-6.0-1.2","305","7.1.2020","19:09:02"
"485","<span style=""color:purple"">Schuhe</span>","68","main","d","2","14","2","1","html-keyboard-response","30","471997","0.0-6.0-1.3","305","7.1.2020","19:09:02"
"581","<span style=""color:purple"">Kälte</span>","68","main","d","1","10","2","1","html-keyboard-response","32","474272","0.0-6.0-1.4","305","7.1.2020","19:09:02"
"652","<span style=""color:purple"">Tod</span>","68","main","d","1","4","2","1","html-keyboard-response","34","476542","0.0-6.0-1.5","305","7.1.2020","19:09:02"
"670","<span style=""color:green"">Stadt</span>","87","main","w","2","10","1","1","html-keyboard-response","36","478796","0.0-6.0-1.6","305","7.1.2020","19:09:02"
"528","<span style=""color:green"">Schal</span>","87","main","w","2","13","1","1","html-keyboard-response","38","481076","0.0-6.0-1.7","305","7.1.2020","19:09:02"
"544","<span style=""color:blue"">Krankheit</span>","65","main","a","1","14","0","1","html-keyboard-response","40","483347","0.0-6.0-1.8","305","7.1.2020","19:09:02"
"554","<span style=""color:purple"">Ekel</span>","68","main","d","1","7","2","1","html-keyboard-response","42","485627","0.0-6.0-1.9","305","7.1.2020","19:09:02"
"548","<span style=""color:green"">Mord</span>","87","main","w","1","0","1","1","html-keyboard-response","44","487897","0.0-6.0-1.10","305","7.1.2020","19:09:02"
"589","<span style=""color:green"">Pflanze</span>","87","main","w","2","1","1","1","html-keyboard-response","46","490177","0.0-6.0-1.11","305","7.1.2020","19:09:02"
"550","<span style=""color:purple"">Ebola</span>","68","main","d","1","13","2","1","html-keyboard-response","48","492439","0.0-6.0-1.12","305","7.1.2020","19:09:02"
"526","<span style=""color:purple"">Straße</span>","68","main","d","2","11","2","1","html-keyboard-response","50","494697","0.0-6.0-1.13","305","7.1.2020","19:09:02"
"452","<span style=""color:blue"">Schulden</span>","65","main","a","1","2","0","1","html-keyboard-response","52","496976","0.0-6.0-1.14","305","7.1.2020","19:09:02"
"585","<span style=""color:blue"">Stuhl</span>","65","main","a","2","3","0","1","html-keyboard-response","54","499257","0.0-6.0-1.15","305","7.1.2020","19:09:02"
"529","<span style=""color:green"">Diebstahl</span>","87","main","w","1","9","1","1","html-keyboard-response","56","501527","0.0-6.0-1.16","305","7.1.2020","19:09:02"
"701","<span style=""color:purple"">Krieg</span>","68","main","d","1","1","2","1","html-keyboard-response","58","503797","0.0-6.0-1.17","305","7.1.2020","19:09:02"
"646","<span style=""color:purple"">Papier</span>","68","main","d","2","2","2","1","html-keyboard-response","60","506077","0.0-6.0-1.18","305","7.1.2020","19:09:02"
"603","<span style=""color:purple"">Schrank</span>","68","main","d","2","8","2","1","html-keyboard-response","62","508347","0.0-6.0-1.19","305","7.1.2020","19:09:02"
"496","<span style=""color:green"">Bombe</span>","87","main","w","1","15","1","1","html-keyboard-response","64","510616","0.0-6.0-1.20","305","7.1.2020","19:09:02"
"624","<span style=""color:green"">Stein</span>","87","main","w","2","7","1","1","html-keyboard-response","66","512897","0.0-6.0-1.21","305","7.1.2020","19:09:02"
"591","<span style=""color:green"">Grab</span>","87","main","w","1","3","1","1","html-keyboard-response","68","515167","0.0-6.0-1.22","305","7.1.2020","19:09:02"
"706","<span style=""color:blue"">Stress</span>","65","main","a","1","5","0","1","html-keyboard-response","70","517457","0.0-6.0-1.23","305","7.1.2020","19:09:02"
"577","<span style=""color:blue"">Panik</span>","65","main","a","1","11","0","1","html-keyboard-response","72","519747","0.0-6.0-1.24","305","7.1.2020","19:09:02"
"664","<span style=""color:blue"">Lampe</span>","65","main","a","2","9","0","1","html-keyboard-response","74","522007","0.0-6.0-1.25","305","7.1.2020","19:09:02"
"628","<span style=""color:blue"">Haus</span>","65","main","a","2","6","0","1","html-keyboard-response","76","524295","0.0-6.0-1.26","305","7.1.2020","19:09:02"
"600","<span style=""color:blue"">Fenster</span>","65","main","a","2","15","0","1","html-keyboard-response","78","526556","0.0-6.0-1.27","305","7.1.2020","19:09:02"
"600","<span style=""color:green"">Hunger</span>","87","main","w","1","12","1","1","html-keyboard-response","80","528836","0.0-6.0-1.28","305","7.1.2020","19:09:02"
"632","<span style=""color:green"">Prüfung</span>","87","main","w","1","6","1","1","html-keyboard-response","82","531101","0.0-6.0-1.29","305","7.1.2020","19:09:02"
"733","<span style=""color:blue"">Flasche</span>","65","main","a","2","12","0","1","html-keyboard-response","84","533367","0.0-6.0-1.30","305","7.1.2020","19:09:02"
"689","<span style=""color:purple"">Tür</span>","68","main","d","2","5","2","1","html-keyboard-response","86","535637","0.0-6.0-1.31","305","7.1.2020","19:09:02"
