"rt","stimulus","key_press","test_part","expected_response","v_cond","v_wordNum","v_colNum","v_correct","trial_type","trial_index","time_elapsed","internal_node_id","id","date","time"
"720","<span style=""color:blue"">Stift</span>","65","test","a","2","3","0","1","html-keyboard-response","7","36180","0.0-4.0-1.0","401","20.1.2020","13:34:12"
"647","<span style=""color:green"">Würfel</span>","87","test","w","2","1","1","1","html-keyboard-response","9","38437","0.0-4.0-1.1","401","20.1.2020","13:34:12"
"614","<span style=""color:blue"">Unglück</span>","65","test","a","1","3","0","1","html-keyboard-response","11","40695","0.0-4.0-1.2","401","20.1.2020","13:34:12"
"601","<span style=""color:purple"">Glas</span>","68","test","d","2","2","2","1","html-keyboard-response","13","42950","0.0-4.0-1.3","401","20.1.2020","13:34:12"
"540","<span style=""color:purple"">Verspätung</span>","68","test","d","1","2","2","1","html-keyboard-response","15","45203","0.0-4.0-1.4","401","20.1.2020","13:34:12"
"651","<span style=""color:blue"">Tuch</span>","65","test","a","2","0","0","1","html-keyboard-response","17","47458","0.0-4.0-1.5","401","20.1.2020","13:34:12"
"576","<span style=""color:green"">Trauer</span>","87","test","w","1","1","1","1","html-keyboard-response","19","49711","0.0-4.0-1.6","401","20.1.2020","13:34:12"
"588","<span style=""color:blue"">Unfall</span>","65","test","a","1","0","0","1","html-keyboard-response","21","51967","0.0-4.0-1.7","401","20.1.2020","13:34:12"
"550","<span style=""color:blue"">Lampe</span>","65","main","a","2","6","0","1","html-keyboard-response","24","55090","0.0-6.0-1.0","401","20.1.2020","13:34:12"
"568","<span style=""color:green"">Grab</span>","87","main","w","1","0","1","1","html-keyboard-response","26","57343","0.0-6.0-1.1","401","20.1.2020","13:34:12"
"571","<span style=""color:blue"">Stein</span>","65","main","a","2","9","0","1","html-keyboard-response","28","59597","0.0-6.0-1.2","401","20.1.2020","13:34:12"
"501","<span style=""color:blue"">Hunger</span>","65","main","a","1","11","0","1","html-keyboard-response","30","61851","0.0-6.0-1.3","401","20.1.2020","13:34:12"
"756","<span style=""color:green"">Zerstörung</span>","87","main","w","1","12","1","1","html-keyboard-response","32","64104","0.0-6.0-1.4","401","20.1.2020","13:34:12"
"517","<span style=""color:purple"">Stuhl</span>","68","main","d","2","5","2","1","html-keyboard-response","34","66359","0.0-6.0-1.5","401","20.1.2020","13:34:12"
"564","<span style=""color:green"">Schal</span>","87","main","w","2","13","1","1","html-keyboard-response","36","68613","0.0-6.0-1.6","401","20.1.2020","13:34:12"
"596","<span style=""color:purple"">Stress</span>","68","main","d","1","7","2","1","html-keyboard-response","38","70867","0.0-6.0-1.7","401","20.1.2020","13:34:12"
"626","<span style=""color:blue"">Prüfung</span>","65","main","a","1","8","0","1","html-keyboard-response","40","73119","0.0-6.0-1.8","401","20.1.2020","13:34:12"
"580","<span style=""color:blue"">Panik</span>","65","main","a","1","2","0","1","html-keyboard-response","42","75374","0.0-6.0-1.9","401","20.1.2020","13:34:12"
"572","<span style=""color:purple"">Diebstahl</span>","68","main","d","1","10","2","1","html-keyboard-response","44","77626","0.0-6.0-1.10","401","20.1.2020","13:34:12"
"677","<span style=""color:green"">Tür</span>","87","main","w","2","4","1","1","html-keyboard-response","46","79878","0.0-6.0-1.11","401","20.1.2020","13:34:12"
"637","<span style=""color:purple"">Stadt</span>","68","main","d","2","11","2","1","html-keyboard-response","48","82132","0.0-6.0-1.12","401","20.1.2020","13:34:12"
"703","<span style=""color:green"">Fahrzeug</span>","65","main","w","2","7","1","0","html-keyboard-response","50","84386","0.0-6.0-1.13","401","20.1.2020","13:34:12"
"818","<span style=""color:green"">Kälte</span>","87","main","w","1","9","1","1","html-keyboard-response","53","90642","0.0-6.0-1.14","401","20.1.2020","13:34:12"
"623","<span style=""color:blue"">Anker</span>","65","main","a","2","3","0","1","html-keyboard-response","55","92898","0.0-6.0-1.15","401","20.1.2020","13:34:12"
"601","<span style=""color:purple"">Straße</span>","68","main","d","2","8","2","1","html-keyboard-response","57","95149","0.0-6.0-1.16","401","20.1.2020","13:34:12"
"725","<span style=""color:green"">Tod</span>","87","main","w","1","3","1","1","html-keyboard-response","59","97404","0.0-6.0-1.17","401","20.1.2020","13:34:12"
"660","<span style=""color:green"">Schrank</span>","87","main","w","2","10","1","1","html-keyboard-response","61","99658","0.0-6.0-1.18","401","20.1.2020","13:34:12"
"538","<span style=""color:green"">Ekel</span>","87","main","w","1","6","1","1","html-keyboard-response","63","101911","0.0-6.0-1.19","401","20.1.2020","13:34:12"
"585","<span style=""color:blue"">Schuhe</span>","65","main","a","2","12","0","1","html-keyboard-response","65","104164","0.0-6.0-1.20","401","20.1.2020","13:34:12"
"642","<span style=""color:purple"">Pflanze</span>","68","main","d","2","2","2","1","html-keyboard-response","67","106417","0.0-6.0-1.21","401","20.1.2020","13:34:12"
"674","<span style=""color:purple"">Ebola</span>","68","main","d","1","13","2","1","html-keyboard-response","69","108674","0.0-6.0-1.22","401","20.1.2020","13:34:12"
"502","<span style=""color:purple"">Krieg</span>","68","main","d","1","1","2","1","html-keyboard-response","71","110929","0.0-6.0-1.23","401","20.1.2020","13:34:12"
"829","<span style=""color:blue"">Fenster</span>","65","main","a","2","15","0","1","html-keyboard-response","73","113182","0.0-6.0-1.24","401","20.1.2020","13:34:12"
"631","<span style=""color:green"">Bombe</span>","87","main","w","1","15","1","1","html-keyboard-response","75","115436","0.0-6.0-1.25","401","20.1.2020","13:34:12"
"566","<span style=""color:purple"">Flasche</span>","68","main","d","2","14","2","1","html-keyboard-response","77","117688","0.0-6.0-1.26","401","20.1.2020","13:34:12"
"645","<span style=""color:blue"">Papier</span>","65","main","a","2","0","0","1","html-keyboard-response","79","119940","0.0-6.0-1.27","401","20.1.2020","13:34:12"
"625","<span style=""color:blue"">Krankheit</span>","65","main","a","1","14","0","1","html-keyboard-response","81","122194","0.0-6.0-1.28","401","20.1.2020","13:34:12"
"667","<span style=""color:purple"">Mord</span>","68","main","d","1","4","2","1","html-keyboard-response","83","124447","0.0-6.0-1.29","401","20.1.2020","13:34:12"
"859","<span style=""color:blue"">Schulden</span>","65","main","a","1","5","0","1","html-keyboard-response","85","126701","0.0-6.0-1.30","401","20.1.2020","13:34:12"
"635","<span style=""color:green"">Haus</span>","87","main","w","2","1","1","1","html-keyboard-response","87","128954","0.0-6.0-1.31","401","20.1.2020","13:34:12"
