"rt","stimulus","key_press","test_part","expected_response","v_cond","v_wordNum","v_colNum","v_correct","trial_type","trial_index","time_elapsed","internal_node_id","id","date","time"
"null","<span style=""color:green"">Trauer</span>","-999","test","w","1","1","1","-999","html-keyboard-response","7","75516","0.0-4.0-1.0","103","13.1.2020","13:22:09"
"949","<span style=""color:blue"">Unglück</span>","65","test","a","1","3","0","1","html-keyboard-response","10","81770","0.0-4.0-1.1","103","13.1.2020","13:22:09"
"658","<span style=""color:blue"">Unfall</span>","65","test","a","1","0","0","1","html-keyboard-response","12","84024","0.0-4.0-1.2","103","13.1.2020","13:22:09"
"1018","<span style=""color:blue"">Stift</span>","65","test","a","2","3","0","1","html-keyboard-response","14","86279","0.0-4.0-1.3","103","13.1.2020","13:22:09"
"794","<span style=""color:purple"">Glas</span>","68","test","d","2","2","2","1","html-keyboard-response","16","88533","0.0-4.0-1.4","103","13.1.2020","13:22:09"
"535","<span style=""color:purple"">Verspätung</span>","68","test","d","1","2","2","1","html-keyboard-response","18","90785","0.0-4.0-1.5","103","13.1.2020","13:22:09"
"595","<span style=""color:green"">Würfel</span>","87","test","w","2","1","1","1","html-keyboard-response","20","93040","0.0-4.0-1.6","103","13.1.2020","13:22:09"
"662","<span style=""color:blue"">Tuch</span>","65","test","a","2","0","0","1","html-keyboard-response","22","95291","0.0-4.0-1.7","103","13.1.2020","13:22:09"
"679","<span style=""color:green"">Stuhl</span>","87","main","w","2","7","1","1","html-keyboard-response","25","104839","0.0-6.0-1.0","103","13.1.2020","13:22:09"
"508","<span style=""color:blue"">Zerstörung</span>","65","main","a","1","8","0","1","html-keyboard-response","27","107092","0.0-6.0-1.1","103","13.1.2020","13:22:09"
"515","<span style=""color:green"">Anker</span>","87","main","w","2","1","1","1","html-keyboard-response","29","109346","0.0-6.0-1.2","103","13.1.2020","13:22:09"
"535","<span style=""color:blue"">Pflanze</span>","65","main","a","2","3","0","1","html-keyboard-response","31","111600","0.0-6.0-1.3","103","13.1.2020","13:22:09"
"631","<span style=""color:green"">Krankheit</span>","87","main","w","1","15","1","1","html-keyboard-response","33","113853","0.0-6.0-1.4","103","13.1.2020","13:22:09"
"785","<span style=""color:green"">Mord</span>","87","main","w","1","0","1","1","html-keyboard-response","35","116107","0.0-6.0-1.5","103","13.1.2020","13:22:09"
"663","<span style=""color:green"">Diebstahl</span>","87","main","w","1","9","1","1","html-keyboard-response","37","118362","0.0-6.0-1.6","103","13.1.2020","13:22:09"
"589","<span style=""color:blue"">Stress</span>","65","main","a","1","5","0","1","html-keyboard-response","39","120618","0.0-6.0-1.7","103","13.1.2020","13:22:09"
"683","<span style=""color:green"">Fahrzeug</span>","87","main","w","2","4","1","1","html-keyboard-response","41","122872","0.0-6.0-1.8","103","13.1.2020","13:22:09"
"590","<span style=""color:blue"">Lampe</span>","65","main","a","2","6","0","1","html-keyboard-response","43","125125","0.0-6.0-1.9","103","13.1.2020","13:22:09"
"596","<span style=""color:green"">Schuhe</span>","87","main","w","2","13","1","1","html-keyboard-response","45","127378","0.0-6.0-1.10","103","13.1.2020","13:22:09"
"576","<span style=""color:blue"">Schrank</span>","65","main","a","2","9","0","1","html-keyboard-response","47","129633","0.0-6.0-1.11","103","13.1.2020","13:22:09"
"484","<span style=""color:green"">Ekel</span>","87","main","w","1","6","1","1","html-keyboard-response","49","131888","0.0-6.0-1.12","103","13.1.2020","13:22:09"
"619","<span style=""color:green"">Ebola</span>","87","main","w","1","12","1","1","html-keyboard-response","51","134144","0.0-6.0-1.13","103","13.1.2020","13:22:09"
"445","<span style=""color:green"">Stadt</span>","87","main","w","2","10","1","1","html-keyboard-response","53","136399","0.0-6.0-1.14","103","13.1.2020","13:22:09"
"521","<span style=""color:purple"">Kälte</span>","68","main","d","1","10","2","1","html-keyboard-response","55","138658","0.0-6.0-1.15","103","13.1.2020","13:22:09"
"513","<span style=""color:purple"">Krieg</span>","68","main","d","1","1","2","1","html-keyboard-response","57","140913","0.0-6.0-1.16","103","13.1.2020","13:22:09"
"540","<span style=""color:purple"">Papier</span>","68","main","d","2","2","2","1","html-keyboard-response","59","143167","0.0-6.0-1.17","103","13.1.2020","13:22:09"
"648","<span style=""color:purple"">Tür</span>","68","main","d","2","5","2","1","html-keyboard-response","61","145422","0.0-6.0-1.18","103","13.1.2020","13:22:09"
"555","<span style=""color:purple"">Straße</span>","68","main","d","2","11","2","1","html-keyboard-response","63","147678","0.0-6.0-1.19","103","13.1.2020","13:22:09"
"698","<span style=""color:blue"">Fenster</span>","65","main","a","2","15","0","1","html-keyboard-response","65","149933","0.0-6.0-1.20","103","13.1.2020","13:22:09"
"541","<span style=""color:purple"">Stein</span>","68","main","d","2","8","2","1","html-keyboard-response","67","152187","0.0-6.0-1.21","103","13.1.2020","13:22:09"
"620","<span style=""color:purple"">Schal</span>","68","main","d","2","14","2","1","html-keyboard-response","69","154440","0.0-6.0-1.22","103","13.1.2020","13:22:09"
"583","<span style=""color:purple"">Prüfung</span>","68","main","d","1","7","2","1","html-keyboard-response","71","156694","0.0-6.0-1.23","103","13.1.2020","13:22:09"
"507","<span style=""color:blue"">Flasche</span>","65","main","a","2","12","0","1","html-keyboard-response","73","158948","0.0-6.0-1.24","103","13.1.2020","13:22:09"
"535","<span style=""color:purple"">Panik</span>","68","main","d","1","13","2","1","html-keyboard-response","75","161202","0.0-6.0-1.25","103","13.1.2020","13:22:09"
"506","<span style=""color:green"">Grab</span>","87","main","w","1","3","1","1","html-keyboard-response","77","163458","0.0-6.0-1.26","103","13.1.2020","13:22:09"
"626","<span style=""color:blue"">Schulden</span>","65","main","a","1","2","0","1","html-keyboard-response","79","165713","0.0-6.0-1.27","103","13.1.2020","13:22:09"
"569","<span style=""color:purple"">Tod</span>","68","main","d","1","4","2","1","html-keyboard-response","81","167968","0.0-6.0-1.28","103","13.1.2020","13:22:09"
"583","<span style=""color:blue"">Bombe</span>","65","main","a","1","14","0","1","html-keyboard-response","83","170222","0.0-6.0-1.29","103","13.1.2020","13:22:09"
"583","<span style=""color:blue"">Hunger</span>","65","main","a","1","11","0","1","html-keyboard-response","85","172475","0.0-6.0-1.30","103","13.1.2020","13:22:09"
"505","<span style=""color:blue"">Haus</span>","65","main","a","2","0","0","1","html-keyboard-response","87","174727","0.0-6.0-1.31","103","13.1.2020","13:22:09"
